Folder: Spectro/UV-Vis Nanotubes_04172017 (part 2)

File: Original 1.5DF.txt
"Original 1.5DF.spc - RawData"
"Wavelength nm.","Abs."
450.00,0.256
452.50,0.257
455.00,0.258
457.50,0.261
460.00,0.263
462.50,0.265
465.00,0.267
467.50,0.268
470.00,0.267
472.50,0.265
475.00,0.261
477.50,0.256
480.00,0.251
482.50,0.246
485.00,0.241
487.50,0.237
490.00,0.234
492.50,0.232
495.00,0.231
497.50,0.231
500.00,0.232
502.50,0.234
505.00,0.236
507.50,0.238
510.00,0.240
512.50,0.242
515.00,0.243
517.50,0.243
520.00,0.243
522.50,0.242
525.00,0.240
527.50,0.239
530.00,0.237
532.50,0.235
535.00,0.233
537.50,0.232
540.00,0.231
542.50,0.230
545.00,0.231
547.50,0.232
550.00,0.234
552.50,0.237
555.00,0.241
557.50,0.247
560.00,0.253
562.50,0.261
565.00,0.270
567.50,0.279
570.00,0.287
572.50,0.293
575.00,0.298
577.50,0.302
580.00,0.304
582.50,0.304
585.00,0.304
587.50,0.303
590.00,0.300
592.50,0.297
595.00,0.292
597.50,0.287
600.00,0.281
602.50,0.274
605.00,0.267
607.50,0.260
610.00,0.253
612.50,0.245
615.00,0.239
617.50,0.233
620.00,0.227
622.50,0.223
625.00,0.219
627.50,0.215
630.00,0.213
632.50,0.211
635.00,0.211
637.50,0.211
640.00,0.212
642.50,0.213
645.00,0.215
647.50,0.218
650.00,0.220
652.50,0.222
655.00,0.224
657.50,0.225
660.00,0.226
662.50,0.227
665.00,0.227
667.50,0.227
670.00,0.226
672.50,0.224
675.00,0.222
677.50,0.219
680.00,0.216
682.50,0.212
685.00,0.209
687.50,0.206
690.00,0.202
692.50,0.199
695.00,0.195
697.50,0.192
700.00,0.189
702.50,0.186
705.00,0.183
707.50,0.180
710.00,0.178
712.50,0.176
715.00,0.175
717.50,0.174
720.00,0.172
722.50,0.171
725.00,0.171
727.50,0.170
730.00,0.169
732.50,0.169
735.00,0.168
737.50,0.168
740.00,0.167
742.50,0.167
745.00,0.166
747.50,0.165
750.00,0.165
752.50,0.164
755.00,0.164
757.50,0.163
760.00,0.162
762.50,0.162
765.00,0.161
767.50,0.160
770.00,0.160
772.50,0.159
775.00,0.158
777.50,0.158
780.00,0.157
782.50,0.157
785.00,0.156
787.50,0.156
790.00,0.156
792.50,0.156
795.00,0.156
797.50,0.156
800.00,0.156
802.50,0.157
805.00,0.157
807.50,0.158
810.00,0.158
812.50,0.159
815.00,0.160
817.50,0.161
820.00,0.162
822.50,0.163
825.00,0.165
827.50,0.166
830.00,0.168
832.50,0.169
835.00,0.171
837.50,0.173
840.00,0.175
842.50,0.176
845.00,0.178
847.50,0.180
850.00,0.182
852.50,0.184
855.00,0.186
857.50,0.188
860.00,0.190
862.50,0.192
865.00,0.195
867.50,0.197
870.00,0.199
872.50,0.202
875.00,0.204
877.50,0.206
880.00,0.206
882.50,0.207
885.00,0.207
887.50,0.206
890.00,0.207
892.50,0.210
895.00,0.211
897.50,0.210
900.00,0.210
902.50,0.209
905.00,0.211
907.50,0.209
910.00,0.210
912.50,0.209
915.00,0.208
917.50,0.207
920.00,0.206
922.50,0.205
925.00,0.201
927.50,0.200
930.00,0.200
932.50,0.197
935.00,0.201
937.50,0.202
940.00,0.198
942.50,0.193
945.00,0.192
947.50,0.193
950.00,0.189
952.50,0.185
955.00,0.187
957.50,0.184
960.00,0.183
962.50,0.193
965.00,0.189
967.50,0.195
970.00,0.195
972.50,0.199
975.00,0.209
977.50,0.212
980.00,0.214
982.50,0.225
985.00,0.228
987.50,0.216
990.00,0.228
992.50,0.225
995.00,0.224
997.50,0.221
1000.00,0.221
1002.50,0.222
1005.00,0.218
1007.50,0.215
1010.00,0.210
1012.50,0.205
1015.00,0.212
1017.50,0.203
1020.00,0.202
1022.50,0.192
1025.00,0.192
1027.50,0.185
1030.00,0.190
1032.50,0.180
1035.00,0.186
1037.50,0.176
1040.00,0.181
1042.50,0.177
1045.00,0.168
1047.50,0.181
1050.00,0.177
1052.50,0.175
1055.00,0.161
1057.50,0.166
1060.00,0.167
1062.50,0.163
1065.00,0.160
1067.50,0.164
1070.00,0.183
1072.50,0.191
1075.00,0.152
1077.50,0.159
1080.00,0.157
1082.50,0.155
1085.00,0.156
1087.50,0.162
1090.00,0.162
1092.50,0.158
1095.00,0.159
1097.50,0.161
1100.00,0.158

File: Original 1DF.txt
"Original 1DF.spc - RawData-002"
"Wavelength nm.","Abs."
450.00,
452.50,
455.00,
457.50,
460.00,
462.50,
465.00,
467.50,
470.00,
472.50,
475.00,
477.50,
480.00,
482.50,
485.00,
487.50,
490.00,
492.50,
495.00,
497.50,
500.00,
502.50,
505.00,
507.50,
510.00,
512.50,
515.00,
517.50,
520.00,
522.50,
525.00,
527.50,
530.00,
532.50,
535.00,
537.50,
540.00,
542.50,
545.00,
547.50,
550.00,
552.50,
555.00,
557.50,
560.00,
562.50,
565.00,
567.50,
570.00,
572.50,
575.00,
577.50,
580.00,
582.50,
585.00,
587.50,
590.00,
592.50,
595.00,
597.50,
600.00,
602.50,
605.00,
607.50,
610.00,
612.50,
615.00,
617.50,
620.00,
622.50,
625.00,
627.50,
630.00,
632.50,
635.00,
637.50,
640.00,
642.50,
645.00,
647.50,
650.00,
652.50,
655.00,
657.50,
660.00,
662.50,
665.00,
667.50,
670.00,
672.50,
675.00,
677.50,
680.00,
682.50,
685.00,
687.50,
690.00,
692.50,
695.00,
697.50,
700.00,
702.50,
705.00,
707.50,
710.00,
712.50,
715.00,
717.50,
720.00,
722.50,
725.00,
727.50,
730.00,
732.50,
735.00,
737.50,
740.00,
742.50,
745.00,
747.50,
750.00,
752.50,
755.00,
757.50,
760.00,
762.50,
765.00,
767.50,
770.00,
772.50,
775.00,
777.50,
780.00,
782.50,
785.00,
787.50,
790.00,
792.50,
795.00,
797.50,
800.00,
802.50,
805.00,
807.50,
810.00,
812.50,
815.00,
817.50,
820.00,
822.50,
825.00,
827.50,
830.00,
832.50,
835.00,
837.50,
840.00,
842.50,
845.00,
847.50,
850.00,
852.50,
855.00,
857.50,
860.00,
862.50,
865.00,
867.50,
870.00,
872.50,
875.00,
877.50,
880.00,
882.50,
885.00,
887.50,
890.00,
892.50,
895.00,
897.50,
900.00,
902.50,
905.00,
907.50,
910.00,
912.50,
915.00,
917.50,
920.00,
922.50,
925.00,
927.50,
930.00,
932.50,
935.00,
937.50,
940.00,
942.50,
945.00,
947.50,
950.00,
952.50,
955.00,
957.50,
960.00,
962.50,
965.00,
967.50,
970.00,
972.50,
975.00,
977.50,
980.00,
982.50,
985.00,
987.50,
990.00,
992.50,
995.00,
997.50,
1000.00,
1002.50,
1005.00,
1007.50,
1010.00,
1012.50,
1015.00,
1017.50,
1020.00,
1022.50,
1025.00,
1027.50,
1030.00,
1032.50,
1035.00,
1037.50,
1040.00,
1042.50,
1045.00,
1047.50,
1050.00,
1052.50,
1055.00,
1057.50,
1060.00,
1062.50,
1065.00,
1067.50,
1070.00,
1072.50,
1075.00,
1077.50,
1080.00,
1082.50,
1085.00,0.249
1087.50,0.256
1090.00,0.255
1092.50,0.252
1095.00,0.254
1097.50,0.251
1100.00,0.253

File: Original 3DF.txt
"Original 3DF.spc - RawData"
"Wavelength nm.","Abs."
450.00,0.124
452.50,0.125
455.00,0.126
457.50,0.127
460.00,0.128
462.50,0.129
465.00,0.130
467.50,0.130
470.00,0.130
472.50,0.129
475.00,0.127
477.50,0.125
480.00,0.122
482.50,0.120
485.00,0.117
487.50,0.115
490.00,0.114
492.50,0.113
495.00,0.113
497.50,0.113
500.00,0.113
502.50,0.114
505.00,0.115
507.50,0.116
510.00,0.117
512.50,0.118
515.00,0.118
517.50,0.119
520.00,0.118
522.50,0.118
525.00,0.117
527.50,0.116
530.00,0.115
532.50,0.114
535.00,0.114
537.50,0.113
540.00,0.113
542.50,0.112
545.00,0.113
547.50,0.113
550.00,0.114
552.50,0.116
555.00,0.118
557.50,0.120
560.00,0.123
562.50,0.127
565.00,0.131
567.50,0.136
570.00,0.140
572.50,0.143
575.00,0.145
577.50,0.147
580.00,0.148
582.50,0.149
585.00,0.148
587.50,0.148
590.00,0.146
592.50,0.145
595.00,0.143
597.50,0.140
600.00,0.137
602.50,0.134
605.00,0.130
607.50,0.127
610.00,0.123
612.50,0.120
615.00,0.117
617.50,0.114
620.00,0.111
622.50,0.109
625.00,0.107
627.50,0.106
630.00,0.104
632.50,0.104
635.00,0.103
637.50,0.103
640.00,0.104
642.50,0.105
645.00,0.106
647.50,0.107
650.00,0.108
652.50,0.109
655.00,0.110
657.50,0.110
660.00,0.111
662.50,0.111
665.00,0.111
667.50,0.111
670.00,0.111
672.50,0.110
675.00,0.109
677.50,0.107
680.00,0.106
682.50,0.104
685.00,0.103
687.50,0.101
690.00,0.099
692.50,0.098
695.00,0.096
697.50,0.094
700.00,0.093
702.50,0.091
705.00,0.090
707.50,0.089
710.00,0.088
712.50,0.087
715.00,0.086
717.50,0.086
720.00,0.085
722.50,0.085
725.00,0.084
727.50,0.084
730.00,0.084
732.50,0.083
735.00,0.083
737.50,0.083
740.00,0.083
742.50,0.082
745.00,0.082
747.50,0.082
750.00,0.081
752.50,0.081
755.00,0.081
757.50,0.081
760.00,0.080
762.50,0.080
765.00,0.080
767.50,0.079
770.00,0.079
772.50,0.078
775.00,0.078
777.50,0.078
780.00,0.078
782.50,0.078
785.00,0.077
787.50,0.077
790.00,0.077
792.50,0.077
795.00,0.077
797.50,0.077
800.00,0.077
802.50,0.078
805.00,0.078
807.50,0.078
810.00,0.078
812.50,0.079
815.00,0.079
817.50,0.080
820.00,0.080
822.50,0.081
825.00,0.081
827.50,0.082
830.00,0.083
832.50,0.083
835.00,0.084
837.50,0.085
840.00,0.086
842.50,0.086
845.00,0.087
847.50,0.088
850.00,0.089
852.50,0.090
855.00,0.090
857.50,0.092
860.00,0.093
862.50,0.094
865.00,0.095
867.50,0.096
870.00,0.097
872.50,0.098
875.00,0.099
877.50,0.100
880.00,0.101
882.50,0.100
885.00,0.100
887.50,0.100
890.00,0.101
892.50,0.102
895.00,0.102
897.50,0.102
900.00,0.102
902.50,0.101
905.00,0.104
907.50,0.101
910.00,0.101
912.50,0.102
915.00,0.102
917.50,0.101
920.00,0.100
922.50,0.099
925.00,0.098
927.50,0.097
930.00,0.098
932.50,0.096
935.00,0.096
937.50,0.099
940.00,0.098
942.50,0.096
945.00,0.095
947.50,0.096
950.00,0.094
952.50,0.093
955.00,0.091
957.50,0.095
960.00,0.090
962.50,0.097
965.00,0.093
967.50,0.099
970.00,0.096
972.50,0.096
975.00,0.106
977.50,0.109
980.00,0.107
982.50,0.115
985.00,0.118
987.50,0.109
990.00,0.111
992.50,0.115
995.00,0.112
997.50,0.114
1000.00,0.108
1002.50,0.113
1005.00,0.112
1007.50,0.108
1010.00,0.106
1012.50,0.103
1015.00,0.109
1017.50,0.096
1020.00,0.104
1022.50,0.086
1025.00,0.089
1027.50,0.093
1030.00,0.096
1032.50,0.088
1035.00,0.097
1037.50,0.089
1040.00,0.094
1042.50,0.094
1045.00,0.084
1047.50,0.090
1050.00,0.089
1052.50,0.088
1055.00,0.081
1057.50,0.081
1060.00,0.082
1062.50,0.081
1065.00,0.085
1067.50,0.084
1070.00,0.093
1072.50,0.092
1075.00,0.075
1077.50,0.077
1080.00,0.077
1082.50,0.077
1085.00,0.073
1087.50,0.081
1090.00,0.085
1092.50,0.074
1095.00,0.077
1097.50,0.073
1100.00,0.078

File: Original 6DF.txt
"Original 6DF.spc - RawData"
"Wavelength nm.","Abs."
450.00,0.066
452.50,0.066
455.00,0.066
457.50,0.067
460.00,0.068
462.50,0.068
465.00,0.069
467.50,0.069
470.00,0.069
472.50,0.068
475.00,0.067
477.50,0.066
480.00,0.065
482.50,0.063
485.00,0.062
487.50,0.061
490.00,0.060
492.50,0.059
495.00,0.059
497.50,0.059
500.00,0.059
502.50,0.060
505.00,0.060
507.50,0.061
510.00,0.061
512.50,0.062
515.00,0.062
517.50,0.062
520.00,0.062
522.50,0.062
525.00,0.061
527.50,0.061
530.00,0.060
532.50,0.060
535.00,0.059
537.50,0.059
540.00,0.059
542.50,0.059
545.00,0.059
547.50,0.059
550.00,0.060
552.50,0.060
555.00,0.061
557.50,0.063
560.00,0.064
562.50,0.067
565.00,0.069
567.50,0.071
570.00,0.073
572.50,0.075
575.00,0.076
577.50,0.077
580.00,0.078
582.50,0.078
585.00,0.078
587.50,0.078
590.00,0.077
592.50,0.076
595.00,0.075
597.50,0.073
600.00,0.072
602.50,0.070
605.00,0.068
607.50,0.066
610.00,0.064
612.50,0.062
615.00,0.061
617.50,0.059
620.00,0.058
622.50,0.057
625.00,0.056
627.50,0.055
630.00,0.054
632.50,0.054
635.00,0.054
637.50,0.054
640.00,0.054
642.50,0.054
645.00,0.055
647.50,0.056
650.00,0.057
652.50,0.057
655.00,0.058
657.50,0.058
660.00,0.058
662.50,0.059
665.00,0.059
667.50,0.059
670.00,0.058
672.50,0.058
675.00,0.057
677.50,0.057
680.00,0.056
682.50,0.055
685.00,0.054
687.50,0.054
690.00,0.053
692.50,0.052
695.00,0.051
697.50,0.050
700.00,0.049
702.50,0.048
705.00,0.048
707.50,0.047
710.00,0.047
712.50,0.046
715.00,0.046
717.50,0.046
720.00,0.045
722.50,0.045
725.00,0.045
727.50,0.045
730.00,0.045
732.50,0.045
735.00,0.045
737.50,0.045
740.00,0.044
742.50,0.045
745.00,0.044
747.50,0.044
750.00,0.044
752.50,0.044
755.00,0.044
757.50,0.044
760.00,0.044
762.50,0.044
765.00,0.044
767.50,0.043
770.00,0.043
772.50,0.043
775.00,0.043
777.50,0.043
780.00,0.043
782.50,0.043
785.00,0.043
787.50,0.042
790.00,0.042
792.50,0.042
795.00,0.043
797.50,0.043
800.00,0.043
802.50,0.043
805.00,0.043
807.50,0.043
810.00,0.043
812.50,0.044
815.00,0.044
817.50,0.044
820.00,0.044
822.50,0.045
825.00,0.045
827.50,0.045
830.00,0.046
832.50,0.046
835.00,0.047
837.50,0.047
840.00,0.047
842.50,0.048
845.00,0.048
847.50,0.048
850.00,0.049
852.50,0.049
855.00,0.049
857.50,0.050
860.00,0.050
862.50,0.051
865.00,0.052
867.50,0.052
870.00,0.053
872.50,0.053
875.00,0.054
877.50,0.054
880.00,0.055
882.50,0.054
885.00,0.054
887.50,0.055
890.00,0.055
892.50,0.055
895.00,0.056
897.50,0.055
900.00,0.055
902.50,0.054
905.00,0.056
907.50,0.053
910.00,0.055
912.50,0.055
915.00,0.054
917.50,0.053
920.00,0.052
922.50,0.053
925.00,0.050
927.50,0.051
930.00,0.051
932.50,0.050
935.00,0.051
937.50,0.052
940.00,0.051
942.50,0.051
945.00,0.048
947.50,0.049
950.00,0.051
952.50,0.047
955.00,0.048
957.50,0.050
960.00,0.048
962.50,0.052
965.00,0.049
967.50,0.052
970.00,0.049
972.50,0.053
975.00,0.051
977.50,0.057
980.00,0.056
982.50,0.064
985.00,0.067
987.50,0.057
990.00,0.064
992.50,0.065
995.00,0.055
997.50,0.064
1000.00,0.060
1002.50,0.060
1005.00,0.056
1007.50,0.056
1010.00,0.058
1012.50,0.051
1015.00,0.058
1017.50,0.050
1020.00,0.057
1022.50,0.044
1025.00,0.050
1027.50,0.050
1030.00,0.047
1032.50,0.046
1035.00,0.053
1037.50,0.040
1040.00,0.049
1042.50,0.045
1045.00,0.042
1047.50,0.048
1050.00,0.049
1052.50,0.049
1055.00,0.041
1057.50,0.040
1060.00,0.041
1062.50,0.040
1065.00,0.043
1067.50,0.050
1070.00,0.053
1072.50,0.050
1075.00,0.035
1077.50,0.038
1080.00,0.035
1082.50,0.041
1085.00,0.040
1087.50,0.047
1090.00,0.046
1092.50,0.039
1095.00,0.043
1097.50,0.042
1100.00,0.045

File: Original 12DF.txt
"Original 12DF.spc - RawData"
"Wavelength nm.","Abs."
450.00,0.030
452.50,0.030
455.00,0.030
457.50,0.030
460.00,0.031
462.50,0.031
465.00,0.031
467.50,0.031
470.00,0.031
472.50,0.031
475.00,0.031
477.50,0.030
480.00,0.029
482.50,0.029
485.00,0.028
487.50,0.028
490.00,0.027
492.50,0.027
495.00,0.027
497.50,0.027
500.00,0.027
502.50,0.027
505.00,0.027
507.50,0.028
510.00,0.028
512.50,0.028
515.00,0.028
517.50,0.028
520.00,0.028
522.50,0.028
525.00,0.028
527.50,0.028
530.00,0.028
532.50,0.028
535.00,0.027
537.50,0.027
540.00,0.027
542.50,0.027
545.00,0.027
547.50,0.027
550.00,0.028
552.50,0.028
555.00,0.028
557.50,0.029
560.00,0.030
562.50,0.031
565.00,0.032
567.50,0.033
570.00,0.035
572.50,0.035
575.00,0.036
577.50,0.037
580.00,0.037
582.50,0.037
585.00,0.037
587.50,0.037
590.00,0.037
592.50,0.036
595.00,0.036
597.50,0.035
600.00,0.034
602.50,0.034
605.00,0.033
607.50,0.032
610.00,0.031
612.50,0.030
615.00,0.029
617.50,0.029
620.00,0.028
622.50,0.027
625.00,0.027
627.50,0.027
630.00,0.026
632.50,0.026
635.00,0.026
637.50,0.026
640.00,0.027
642.50,0.027
645.00,0.027
647.50,0.028
650.00,0.028
652.50,0.028
655.00,0.029
657.50,0.029
660.00,0.029
662.50,0.029
665.00,0.029
667.50,0.029
670.00,0.029
672.50,0.029
675.00,0.029
677.50,0.029
680.00,0.028
682.50,0.028
685.00,0.027
687.50,0.027
690.00,0.027
692.50,0.026
695.00,0.026
697.50,0.025
700.00,0.025
702.50,0.025
705.00,0.025
707.50,0.024
710.00,0.024
712.50,0.024
715.00,0.024
717.50,0.024
720.00,0.023
722.50,0.023
725.00,0.023
727.50,0.023
730.00,0.023
732.50,0.023
735.00,0.023
737.50,0.023
740.00,0.023
742.50,0.023
745.00,0.023
747.50,0.023
750.00,0.023
752.50,0.023
755.00,0.023
757.50,0.023
760.00,0.023
762.50,0.023
765.00,0.023
767.50,0.023
770.00,0.023
772.50,0.023
775.00,0.023
777.50,0.023
780.00,0.023
782.50,0.023
785.00,0.023
787.50,0.023
790.00,0.023
792.50,0.023
795.00,0.023
797.50,0.023
800.00,0.024
802.50,0.024
805.00,0.024
807.50,0.024
810.00,0.024
812.50,0.024
815.00,0.024
817.50,0.025
820.00,0.025
822.50,0.025
825.00,0.025
827.50,0.025
830.00,0.025
832.50,0.025
835.00,0.025
837.50,0.025
840.00,0.026
842.50,0.026
845.00,0.026
847.50,0.026
850.00,0.026
852.50,0.026
855.00,0.026
857.50,0.027
860.00,0.027
862.50,0.027
865.00,0.028
867.50,0.028
870.00,0.028
872.50,0.029
875.00,0.029
877.50,0.029
880.00,0.029
882.50,0.029
885.00,0.028
887.50,0.028
890.00,0.028
892.50,0.029
895.00,0.029
897.50,0.029
900.00,0.028
902.50,0.026
905.00,0.030
907.50,0.028
910.00,0.028
912.50,0.029
915.00,0.027
917.50,0.026
920.00,0.025
922.50,0.026
925.00,0.024
927.50,0.024
930.00,0.026
932.50,0.024
935.00,0.025
937.50,0.026
940.00,0.026
942.50,0.024
945.00,0.024
947.50,0.023
950.00,0.025
952.50,0.021
955.00,0.023
957.50,0.024
960.00,0.021
962.50,0.029
965.00,0.022
967.50,0.026
970.00,0.024
972.50,0.026
975.00,0.026
977.50,0.029
980.00,0.025
982.50,0.034
985.00,0.033
987.50,0.026
990.00,0.028
992.50,0.035
995.00,0.029
997.50,0.032
1000.00,0.030
1002.50,0.033
1005.00,0.027
1007.50,0.032
1010.00,0.027
1012.50,0.025
1015.00,0.028
1017.50,0.026
1020.00,0.029
1022.50,0.017
1025.00,0.017
1027.50,0.024
1030.00,0.022
1032.50,0.018
1035.00,0.031
1037.50,0.018
1040.00,0.025
1042.50,0.022
1045.00,0.017
1047.50,0.024
1050.00,0.026
1052.50,0.023
1055.00,0.019
1057.50,0.021
1060.00,0.018
1062.50,0.017
1065.00,0.025
1067.50,0.019
1070.00,0.025
1072.50,0.028
1075.00,0.016
1077.50,0.017
1080.00,0.016
1082.50,0.014
1085.00,0.015
1087.50,0.022
1090.00,0.025
1092.50,0.015
1095.00,0.020
1097.50,0.017
1100.00,0.019

File: Original 48DF.txt
"Original 48DF.spc - RawData"
"Wavelength nm.","Abs."
450.00,0.003
452.50,0.003
455.00,0.003
457.50,0.003
460.00,0.003
462.50,0.004
465.00,0.003
467.50,0.004
470.00,0.004
472.50,0.004
475.00,0.003
477.50,0.003
480.00,0.003
482.50,0.003
485.00,0.003
487.50,0.003
490.00,0.003
492.50,0.003
495.00,0.003
497.50,0.003
500.00,0.003
502.50,0.003
505.00,0.003
507.50,0.003
510.00,0.003
512.50,0.003
515.00,0.003
517.50,0.003
520.00,0.003
522.50,0.003
525.00,0.003
527.50,0.003
530.00,0.003
532.50,0.003
535.00,0.003
537.50,0.003
540.00,0.002
542.50,0.002
545.00,0.003
547.50,0.003
550.00,0.003
552.50,0.003
555.00,0.003
557.50,0.003
560.00,0.003
562.50,0.003
565.00,0.004
567.50,0.004
570.00,0.004
572.50,0.004
575.00,0.005
577.50,0.005
580.00,0.005
582.50,0.005
585.00,0.005
587.50,0.005
590.00,0.005
592.50,0.005
595.00,0.005
597.50,0.005
600.00,0.005
602.50,0.004
605.00,0.004
607.50,0.004
610.00,0.004
612.50,0.004
615.00,0.004
617.50,0.004
620.00,0.004
622.50,0.004
625.00,0.003
627.50,0.004
630.00,0.003
632.50,0.004
635.00,0.004
637.50,0.004
640.00,0.004
642.50,0.004
645.00,0.004
647.50,0.004
650.00,0.004
652.50,0.004
655.00,0.005
657.50,0.005
660.00,0.005
662.50,0.005
665.00,0.005
667.50,0.005
670.00,0.005
672.50,0.005
675.00,0.005
677.50,0.005
680.00,0.005
682.50,0.005
685.00,0.005
687.50,0.005
690.00,0.004
692.50,0.004
695.00,0.004
697.50,0.004
700.00,0.004
702.50,0.004
705.00,0.004
707.50,0.004
710.00,0.004
712.50,0.004
715.00,0.004
717.50,0.004
720.00,0.004
722.50,0.004
725.00,0.004
727.50,0.004
730.00,0.004
732.50,0.004
735.00,0.004
737.50,0.004
740.00,0.004
742.50,0.004
745.00,0.004
747.50,0.004
750.00,0.004
752.50,0.004
755.00,0.004
757.50,0.004
760.00,0.004
762.50,0.004
765.00,0.004
767.50,0.004
770.00,0.004
772.50,0.004
775.00,0.004
777.50,0.004
780.00,0.004
782.50,0.004
785.00,0.004
787.50,0.004
790.00,0.004
792.50,0.004
795.00,0.004
797.50,0.004
800.00,0.005
802.50,0.005
805.00,0.005
807.50,0.005
810.00,0.005
812.50,0.005
815.00,0.005
817.50,0.005
820.00,0.005
822.50,0.005
825.00,0.005
827.50,0.005
830.00,0.005
832.50,0.005
835.00,0.005
837.50,0.005
840.00,0.005
842.50,0.005
845.00,0.004
847.50,0.004
850.00,0.005
852.50,0.005
855.00,0.004
857.50,0.005
860.00,0.005
862.50,0.005
865.00,0.005
867.50,0.005
870.00,0.005
872.50,0.006
875.00,0.006
877.50,0.005
880.00,0.006
882.50,0.005
885.00,0.005
887.50,0.005
890.00,0.006
892.50,0.005
895.00,0.006
897.50,0.006
900.00,0.005
902.50,0.004
905.00,0.007
907.50,0.005
910.00,0.005
912.50,0.006
915.00,0.005
917.50,0.005
920.00,0.004
922.50,0.004
925.00,0.004
927.50,0.005
930.00,0.004
932.50,0.002
935.00,0.003
937.50,0.006
940.00,0.006
942.50,0.002
945.00,0.005
947.50,0.006
950.00,0.004
952.50,0.002
955.00,0.003
957.50,0.006
960.00,0.004
962.50,0.006
965.00,0.004
967.50,0.008
970.00,0.005
972.50,0.003
975.00,0.005
977.50,0.008
980.00,0.003
982.50,0.014
985.00,0.012
987.50,0.000
990.00,0.009
992.50,0.010
995.00,0.006
997.50,0.007
1000.00,0.012
1002.50,0.007
1005.00,0.008
1007.50,0.012
1010.00,-0.000
1012.50,0.003
1015.00,0.011
1017.50,0.001
1020.00,0.004
1022.50,-0.005
1025.00,0.000
1027.50,-0.001
1030.00,0.007
1032.50,-0.003
1035.00,0.011
1037.50,0.000
1040.00,0.004
1042.50,0.007
1045.00,-0.002
1047.50,0.012
1050.00,0.004
1052.50,0.009
1055.00,0.000
1057.50,0.001
1060.00,0.005
1062.50,-0.004
1065.00,0.008
1067.50,0.004
1070.00,0.006
1072.50,0.006
1075.00,-0.005
1077.50,-0.004
1080.00,-0.000
1082.50,-0.002
1085.00,0.000
1087.50,0.005
1090.00,0.006
1092.50,-0.002
1095.00,0.002
1097.50,0.002
1100.00,0.005