Folder: Spectro/UV-Vis Nanotubes_04172017

Note: README.md
<<<<<<< HEAD
Spectro
=======
# Spectro
Carbon Nanotube Spectral Analysis
>>>>>>> 1ffae4b (Initial commit)

File: New 1.5DF.txt
"New 1.5DF.spc - RawData"
"Wavelength nm.","Abs."
450.00,1.707
452.50,1.711
455.00,1.720
457.50,1.734
460.00,1.749
462.50,1.763
465.00,1.775
467.50,1.780
470.00,1.774
472.50,1.759
475.00,1.736
477.50,1.705
480.00,1.670
482.50,1.636
485.00,1.606
487.50,1.580
490.00,1.562
492.50,1.550
495.00,1.545
497.50,1.547
500.00,1.554
502.50,1.566
505.00,1.580
507.50,1.593
510.00,1.603
512.50,1.610
515.00,1.613
517.50,1.613
520.00,1.610
522.50,1.603
525.00,1.594
527.50,1.583
530.00,1.572
532.50,1.561
535.00,1.551
537.50,1.543
540.00,1.539
542.50,1.538
545.00,1.542
547.50,1.551
550.00,1.567
552.50,1.587
555.00,1.614
557.50,1.649
560.00,1.691
562.50,1.742
565.00,1.794
567.50,1.844
570.00,1.887
572.50,1.919
575.00,1.945
577.50,1.965
580.00,1.980
582.50,1.988
585.00,1.988
587.50,1.978
590.00,1.959
592.50,1.931
595.00,1.896
597.50,1.859
600.00,1.819
602.50,1.776
605.00,1.735
607.50,1.690
610.00,1.647
612.50,1.604
615.00,1.565
617.50,1.530
620.00,1.498
622.50,1.471
625.00,1.446
627.50,1.426
630.00,1.411
632.50,1.400
635.00,1.394
637.50,1.392
640.00,1.393
642.50,1.398
645.00,1.406
647.50,1.416
650.00,1.426
652.50,1.437
655.00,1.449
657.50,1.461
660.00,1.471
662.50,1.479
665.00,1.480
667.50,1.475
670.00,1.463
672.50,1.448
675.00,1.430
677.50,1.410
680.00,1.389
682.50,1.369
685.00,1.348
687.50,1.328
690.00,1.306
692.50,1.285
695.00,1.262
697.50,1.240
700.00,1.218
702.50,1.197
705.00,1.179
707.50,1.162
710.00,1.148
712.50,1.135
715.00,1.125
717.50,1.116
720.00,1.109
722.50,1.104
725.00,1.099
727.50,1.095
730.00,1.092
732.50,1.090
735.00,1.087
737.50,1.084
740.00,1.081
742.50,1.077
745.00,1.073
747.50,1.069
750.00,1.065
752.50,1.061
755.00,1.056
757.50,1.052
760.00,1.047
762.50,1.043
765.00,1.038
767.50,1.033
770.00,1.028
772.50,1.023
775.00,1.018
777.50,1.014
780.00,1.010
782.50,1.007
785.00,1.004
787.50,1.002
790.00,1.000
792.50,0.999
795.00,0.999
797.50,0.999
800.00,1.000
802.50,1.001
805.00,1.003
807.50,1.006
810.00,1.009
812.50,1.014
815.00,1.019
817.50,1.025
820.00,1.032
822.50,1.040
825.00,1.048
827.50,1.058
830.00,1.067
832.50,1.077
835.00,1.088
837.50,1.098
840.00,1.107
842.50,1.118
845.00,1.128
847.50,1.139
850.00,1.151
852.50,1.163
855.00,1.176
857.50,1.191
860.00,1.208
862.50,1.225
865.00,1.245
867.50,1.266
870.00,1.287
872.50,1.304
875.00,1.318
877.50,1.322
880.00,1.319
882.50,1.313
885.00,1.303
887.50,1.298
890.00,1.300
892.50,1.311
895.00,1.318
897.50,1.320
900.00,1.319
902.50,1.314
905.00,1.326
907.50,1.326
910.00,1.338
912.50,1.334
915.00,1.329
917.50,1.313
920.00,1.300
922.50,1.285
925.00,1.275
927.50,1.266
930.00,1.260
932.50,1.259
935.00,1.278
937.50,1.279
940.00,1.264
942.50,1.236
945.00,1.230
947.50,1.223
950.00,1.214
952.50,1.204
955.00,1.194
957.50,1.190
960.00,1.179
962.50,1.189
965.00,1.189
967.50,1.200
970.00,1.209
972.50,1.223
975.00,1.233
977.50,1.248
980.00,1.257
982.50,1.265
985.00,1.253
987.50,1.263
990.00,1.256
992.50,1.236
995.00,1.223
997.50,1.227
1000.00,1.221
1002.50,1.220
1005.00,1.200
1007.50,1.190
1010.00,1.188
1012.50,1.170
1015.00,1.173
1017.50,1.161
1020.00,1.167
1022.50,1.159
1025.00,1.162
1027.50,1.139
1030.00,1.135
1032.50,1.125
1035.00,1.139
1037.50,1.123
1040.00,1.130
1042.50,1.117
1045.00,1.110
1047.50,1.109
1050.00,1.103
1052.50,1.107
1055.00,1.092
1057.50,1.096
1060.00,1.084
1062.50,1.077
1065.00,1.097
1067.50,1.096
1070.00,1.714
1072.50,1.901
1075.00,1.078
1077.50,1.062
1080.00,1.052
1082.50,1.057
1085.00,1.064
1087.50,1.061
1090.00,1.059
1092.50,1.052
1095.00,1.057
1097.50,1.053
1100.00,1.047

File: New 1DF.txt
"New 1DF.spc - RawData"
"Wavelength nm.","Abs."
450.00,2.606
452.50,2.614
455.00,2.628
457.50,2.650
460.00,2.669
462.50,2.691
465.00,2.713
467.50,2.717
470.00,2.708
472.50,2.685
475.00,2.652
477.50,2.600
480.00,2.544
482.50,2.495
485.00,2.447
487.50,2.408
490.00,2.381
492.50,2.363
495.00,2.354
497.50,2.355
500.00,2.368
502.50,2.387
505.00,2.407
507.50,2.428
510.00,2.444
512.50,2.452
515.00,2.458
517.50,2.458
520.00,2.454
522.50,2.443
525.00,2.427
527.50,2.410
530.00,2.391
532.50,2.377
535.00,2.362
537.50,2.350
540.00,2.340
542.50,2.339
545.00,2.346
547.50,2.361
550.00,2.385
552.50,2.414
555.00,2.456
557.50,2.507
560.00,2.578
562.50,2.654
565.00,2.737
567.50,2.818
570.00,2.881
572.50,2.934
575.00,2.983
577.50,3.009
580.00,3.023
582.50,3.045
585.00,3.045
587.50,3.023
590.00,3.002
592.50,2.958
595.00,2.894
597.50,2.839
600.00,2.775
602.50,2.708
605.00,2.643
607.50,2.573
610.00,2.510
612.50,2.440
615.00,2.381
617.50,2.328
620.00,2.277
622.50,2.234
625.00,2.196
627.50,2.165
630.00,2.141
632.50,2.125
635.00,2.116
637.50,2.111
640.00,2.116
642.50,2.121
645.00,2.133
647.50,2.148
650.00,2.164
652.50,2.181
655.00,2.200
657.50,2.218
660.00,2.234
662.50,2.246
665.00,2.249
667.50,2.239
670.00,2.222
672.50,2.199
675.00,2.171
677.50,2.140
680.00,2.108
682.50,2.078
685.00,2.048
687.50,2.016
690.00,1.984
692.50,1.950
695.00,1.917
697.50,1.882
700.00,1.848
702.50,1.816
705.00,1.788
707.50,1.763
710.00,1.741
712.50,1.722
715.00,1.706
717.50,1.693
720.00,1.682
722.50,1.674
725.00,1.666
727.50,1.661
730.00,1.656
732.50,1.652
735.00,1.648
737.50,1.643
740.00,1.638
742.50,1.633
745.00,1.627
747.50,1.621
750.00,1.615
752.50,1.608
755.00,1.602
757.50,1.595
760.00,1.588
762.50,1.582
765.00,1.574
767.50,1.567
770.00,1.560
772.50,1.552
775.00,1.545
777.50,1.538
780.00,1.532
782.50,1.527
785.00,1.523
787.50,1.521
790.00,1.518
792.50,1.517
795.00,1.517
797.50,1.517
800.00,1.518
802.50,1.521
805.00,1.524
807.50,1.527
810.00,1.532
812.50,1.539
815.00,1.547
817.50,1.556
820.00,1.567
822.50,1.579
825.00,1.591
827.50,1.606
830.00,1.620
832.50,1.636
835.00,1.652
837.50,1.666
840.00,1.682
842.50,1.697
845.00,1.713
847.50,1.730
850.00,1.747
852.50,1.768
855.00,1.786
857.50,1.809
860.00,1.834
862.50,1.862
865.00,1.892
867.50,1.923
870.00,1.952
872.50,1.978
875.00,1.994
877.50,1.999
880.00,1.991
882.50,1.982
885.00,1.969
887.50,1.959
890.00,1.962
892.50,1.979
895.00,1.985
897.50,1.992
900.00,1.989
902.50,1.985
905.00,2.002
907.50,1.995
910.00,2.005
912.50,1.999
915.00,1.993
917.50,1.974
920.00,1.947
922.50,1.930
925.00,1.916
927.50,1.899
930.00,1.897
932.50,1.882
935.00,1.920
937.50,1.915
940.00,1.882
942.50,1.853
945.00,1.831
947.50,1.823
950.00,1.810
952.50,1.790
955.00,1.772
957.50,1.753
960.00,1.766
962.50,1.767
965.00,1.760
967.50,1.769
970.00,1.790
972.50,1.777
975.00,1.819
977.50,1.827
980.00,1.855
982.50,1.830
985.00,1.855
987.50,1.845
990.00,1.844
992.50,1.830
995.00,1.805
997.50,1.804
1000.00,1.823
1002.50,1.803
1005.00,1.835
1007.50,1.763
1010.00,1.769
1012.50,1.785
1015.00,1.803
1017.50,1.801
1020.00,1.808
1022.50,1.778
1025.00,1.756
1027.50,1.756
1030.00,1.794
1032.50,1.732
1035.00,1.767
1037.50,1.728
1040.00,1.725
1042.50,1.762
1045.00,1.747
1047.50,1.794
1050.00,1.732
1052.50,1.707
1055.00,1.699
1057.50,1.683
1060.00,1.670
1062.50,1.683
1065.00,1.705
1067.50,1.826
1070.00,5.000
1072.50,5.000
1075.00,1.674
1077.50,1.615
1080.00,1.644
1082.50,1.617
1085.00,1.618
1087.50,1.660
1090.00,1.618
1092.50,1.615
1095.00,1.588
1097.50,1.602
1100.00,1.617

File: New 3DF.txt
"New 3DF.spc - RawData"
"Wavelength nm.","Abs."
450.00,0.861
452.50,0.863
455.00,0.868
457.50,0.874
460.00,0.882
462.50,0.889
465.00,0.895
467.50,0.897
470.00,0.894
472.50,0.887
475.00,0.875
477.50,0.860
480.00,0.843
482.50,0.826
485.00,0.811
487.50,0.798
490.00,0.789
492.50,0.783
495.00,0.780
497.50,0.781
500.00,0.784
502.50,0.790
505.00,0.797
507.50,0.804
510.00,0.809
512.50,0.812
515.00,0.814
517.50,0.814
520.00,0.812
522.50,0.809
525.00,0.804
527.50,0.799
530.00,0.793
532.50,0.787
535.00,0.782
537.50,0.779
540.00,0.776
542.50,0.776
545.00,0.777
547.50,0.782
550.00,0.790
552.50,0.800
555.00,0.813
557.50,0.831
560.00,0.852
562.50,0.876
565.00,0.903
567.50,0.928
570.00,0.949
572.50,0.966
575.00,0.978
577.50,0.988
580.00,0.995
582.50,0.999
585.00,0.999
587.50,0.994
590.00,0.985
592.50,0.972
595.00,0.955
597.50,0.936
600.00,0.916
602.50,0.895
605.00,0.874
607.50,0.852
610.00,0.831
612.50,0.810
615.00,0.790
617.50,0.772
620.00,0.756
622.50,0.741
625.00,0.729
627.50,0.719
630.00,0.711
632.50,0.706
635.00,0.702
637.50,0.701
640.00,0.702
642.50,0.705
645.00,0.709
647.50,0.714
650.00,0.719
652.50,0.725
655.00,0.730
657.50,0.736
660.00,0.741
662.50,0.745
665.00,0.746
667.50,0.743
670.00,0.738
672.50,0.730
675.00,0.721
677.50,0.711
680.00,0.700
682.50,0.690
685.00,0.680
687.50,0.670
690.00,0.659
692.50,0.648
695.00,0.637
697.50,0.626
700.00,0.615
702.50,0.605
705.00,0.596
707.50,0.587
710.00,0.580
712.50,0.574
715.00,0.569
717.50,0.564
720.00,0.561
722.50,0.558
725.00,0.556
727.50,0.554
730.00,0.552
732.50,0.551
735.00,0.550
737.50,0.548
740.00,0.547
742.50,0.545
745.00,0.543
747.50,0.541
750.00,0.539
752.50,0.537
755.00,0.535
757.50,0.532
760.00,0.530
762.50,0.528
765.00,0.526
767.50,0.523
770.00,0.521
772.50,0.518
775.00,0.516
777.50,0.514
780.00,0.512
782.50,0.510
785.00,0.509
787.50,0.508
790.00,0.507
792.50,0.507
795.00,0.507
797.50,0.507
800.00,0.507
802.50,0.508
805.00,0.509
807.50,0.510
810.00,0.512
812.50,0.514
815.00,0.517
817.50,0.520
820.00,0.523
822.50,0.527
825.00,0.531
827.50,0.536
830.00,0.541
832.50,0.546
835.00,0.551
837.50,0.555
840.00,0.560
842.50,0.565
845.00,0.570
847.50,0.576
850.00,0.581
852.50,0.587
855.00,0.593
857.50,0.601
860.00,0.609
862.50,0.617
865.00,0.626
867.50,0.637
870.00,0.647
872.50,0.657
875.00,0.665
877.50,0.669
880.00,0.668
882.50,0.665
885.00,0.661
887.50,0.658
890.00,0.659
892.50,0.664
895.00,0.666
897.50,0.667
900.00,0.668
902.50,0.666
905.00,0.672
907.50,0.671
910.00,0.678
912.50,0.676
915.00,0.675
917.50,0.665
920.00,0.660
922.50,0.653
925.00,0.647
927.50,0.641
930.00,0.640
932.50,0.637
935.00,0.646
937.50,0.646
940.00,0.637
942.50,0.628
945.00,0.627
947.50,0.624
950.00,0.623
952.50,0.616
955.00,0.614
957.50,0.611
960.00,0.609
962.50,0.614
965.00,0.612
967.50,0.621
970.00,0.627
972.50,0.635
975.00,0.648
977.50,0.661
980.00,0.661
982.50,0.674
985.00,0.679
987.50,0.661
990.00,0.665
992.50,0.670
995.00,0.653
997.50,0.647
1000.00,0.642
1002.50,0.633
1005.00,0.632
1007.50,0.635
1010.00,0.619
1012.50,0.611
1015.00,0.607
1017.50,0.607
1020.00,0.606
1022.50,0.585
1025.00,0.595
1027.50,0.586
1030.00,0.582
1032.50,0.581
1035.00,0.583
1037.50,0.565
1040.00,0.570
1042.50,0.570
1045.00,0.560
1047.50,0.564
1050.00,0.551
1052.50,0.558
1055.00,0.551
1057.50,0.552
1060.00,0.547
1062.50,0.539
1065.00,0.538
1067.50,0.543
1070.00,0.626
1072.50,0.640
1075.00,0.536
1077.50,0.532
1080.00,0.529
1082.50,0.533
1085.00,0.530
1087.50,0.533
1090.00,0.534
1092.50,0.519
1095.00,0.530
1097.50,0.526
1100.00,0.528

File: New 6DF.txt
"New 6DF.spc - RawData"
"Wavelength nm.","Abs."
450.00,0.435
452.50,0.437
455.00,0.439
457.50,0.442
460.00,0.446
462.50,0.450
465.00,0.453
467.50,0.454
470.00,0.453
472.50,0.449
475.00,0.442
477.50,0.435
480.00,0.426
482.50,0.417
485.00,0.410
487.50,0.403
490.00,0.399
492.50,0.396
495.00,0.394
497.50,0.395
500.00,0.397
502.50,0.399
505.00,0.403
507.50,0.406
510.00,0.409
512.50,0.411
515.00,0.412
517.50,0.412
520.00,0.411
522.50,0.409
525.00,0.406
527.50,0.404
530.00,0.401
532.50,0.398
535.00,0.395
537.50,0.393
540.00,0.392
542.50,0.392
545.00,0.393
547.50,0.395
550.00,0.399
552.50,0.404
555.00,0.411
557.50,0.420
560.00,0.431
562.50,0.444
565.00,0.458
567.50,0.471
570.00,0.483
572.50,0.491
575.00,0.497
577.50,0.502
580.00,0.505
582.50,0.507
585.00,0.507
587.50,0.504
590.00,0.499
592.50,0.492
595.00,0.484
597.50,0.474
600.00,0.464
602.50,0.453
605.00,0.442
607.50,0.431
610.00,0.420
612.50,0.409
615.00,0.399
617.50,0.390
620.00,0.382
622.50,0.375
625.00,0.369
627.50,0.364
630.00,0.360
632.50,0.358
635.00,0.356
637.50,0.356
640.00,0.357
642.50,0.358
645.00,0.360
647.50,0.363
650.00,0.365
652.50,0.368
655.00,0.371
657.50,0.374
660.00,0.376
662.50,0.378
665.00,0.379
667.50,0.377
670.00,0.374
672.50,0.370
675.00,0.366
677.50,0.361
680.00,0.355
682.50,0.350
685.00,0.345
687.50,0.340
690.00,0.335
692.50,0.329
695.00,0.324
697.50,0.318
700.00,0.313
702.50,0.307
705.00,0.303
707.50,0.299
710.00,0.295
712.50,0.292
715.00,0.289
717.50,0.287
720.00,0.286
722.50,0.284
725.00,0.283
727.50,0.282
730.00,0.282
732.50,0.281
735.00,0.280
737.50,0.279
740.00,0.279
742.50,0.278
745.00,0.277
747.50,0.276
750.00,0.275
752.50,0.273
755.00,0.272
757.50,0.271
760.00,0.270
762.50,0.269
765.00,0.268
767.50,0.267
770.00,0.265
772.50,0.264
775.00,0.263
777.50,0.262
780.00,0.261
782.50,0.260
785.00,0.260
787.50,0.259
790.00,0.259
792.50,0.258
795.00,0.258
797.50,0.258
800.00,0.259
802.50,0.259
805.00,0.260
807.50,0.260
810.00,0.261
812.50,0.262
815.00,0.264
817.50,0.265
820.00,0.267
822.50,0.269
825.00,0.271
827.50,0.273
830.00,0.275
832.50,0.278
835.00,0.281
837.50,0.283
840.00,0.285
842.50,0.288
845.00,0.291
847.50,0.293
850.00,0.296
852.50,0.299
855.00,0.302
857.50,0.306
860.00,0.310
862.50,0.314
865.00,0.319
867.50,0.324
870.00,0.329
872.50,0.334
875.00,0.338
877.50,0.340
880.00,0.340
882.50,0.338
885.00,0.336
887.50,0.335
890.00,0.334
892.50,0.337
895.00,0.339
897.50,0.339
900.00,0.339
902.50,0.338
905.00,0.342
907.50,0.342
910.00,0.344
912.50,0.345
915.00,0.343
917.50,0.338
920.00,0.335
922.50,0.332
925.00,0.327
927.50,0.325
930.00,0.324
932.50,0.322
935.00,0.329
937.50,0.329
940.00,0.325
942.50,0.320
945.00,0.322
947.50,0.319
950.00,0.320
952.50,0.315
955.00,0.315
957.50,0.316
960.00,0.309
962.50,0.316
965.00,0.316
967.50,0.322
970.00,0.321
972.50,0.332
975.00,0.340
977.50,0.352
980.00,0.348
982.50,0.360
985.00,0.361
987.50,0.352
990.00,0.352
992.50,0.353
995.00,0.349
997.50,0.350
1000.00,0.347
1002.50,0.341
1005.00,0.345
1007.50,0.338
1010.00,0.332
1012.50,0.328
1015.00,0.325
1017.50,0.323
1020.00,0.325
1022.50,0.305
1025.00,0.312
1027.50,0.309
1030.00,0.308
1032.50,0.300
1035.00,0.304
1037.50,0.292
1040.00,0.297
1042.50,0.292
1045.00,0.287
1047.50,0.294
1050.00,0.287
1052.50,0.290
1055.00,0.280
1057.50,0.281
1060.00,0.276
1062.50,0.280
1065.00,0.277
1067.50,0.279
1070.00,0.301
1072.50,0.316
1075.00,0.270
1077.50,0.273
1080.00,0.268
1082.50,0.266
1085.00,0.265
1087.50,0.272
1090.00,0.271
1092.50,0.264
1095.00,0.268
1097.50,0.267
1100.00,0.268

File: New 12DF.txt
"New 12DF.spc - RawData"
"Wavelength nm.","Abs."
450.00,0.214
452.50,0.214
455.00,0.215
457.50,0.217
460.00,0.219
462.50,0.221
465.00,0.222
467.50,0.223
470.00,0.222
472.50,0.220
475.00,0.217
477.50,0.213
480.00,0.209
482.50,0.205
485.00,0.201
487.50,0.198
490.00,0.196
492.50,0.194
495.00,0.194
497.50,0.194
500.00,0.195
502.50,0.196
505.00,0.198
507.50,0.199
510.00,0.201
512.50,0.202
515.00,0.202
517.50,0.202
520.00,0.201
522.50,0.201
525.00,0.199
527.50,0.198
530.00,0.196
532.50,0.195
535.00,0.194
537.50,0.193
540.00,0.192
542.50,0.192
545.00,0.193
547.50,0.194
550.00,0.196
552.50,0.198
555.00,0.202
557.50,0.206
560.00,0.211
562.50,0.218
565.00,0.225
567.50,0.231
570.00,0.236
572.50,0.240
575.00,0.243
577.50,0.245
580.00,0.247
582.50,0.248
585.00,0.248
587.50,0.247
590.00,0.244
592.50,0.241
595.00,0.237
597.50,0.232
600.00,0.227
602.50,0.222
605.00,0.216
607.50,0.211
610.00,0.206
612.50,0.201
615.00,0.196
617.50,0.191
620.00,0.187
622.50,0.184
625.00,0.181
627.50,0.179
630.00,0.177
632.50,0.176
635.00,0.175
637.50,0.175
640.00,0.175
642.50,0.176
645.00,0.177
647.50,0.178
650.00,0.180
652.50,0.181
655.00,0.182
657.50,0.184
660.00,0.185
662.50,0.186
665.00,0.186
667.50,0.185
670.00,0.184
672.50,0.182
675.00,0.180
677.50,0.177
680.00,0.175
682.50,0.172
685.00,0.170
687.50,0.167
690.00,0.165
692.50,0.162
695.00,0.159
697.50,0.156
700.00,0.154
702.50,0.151
705.00,0.149
707.50,0.147
710.00,0.145
712.50,0.143
715.00,0.142
717.50,0.141
720.00,0.140
722.50,0.139
725.00,0.139
727.50,0.138
730.00,0.138
732.50,0.138
735.00,0.137
737.50,0.137
740.00,0.136
742.50,0.136
745.00,0.136
747.50,0.135
750.00,0.134
752.50,0.134
755.00,0.133
757.50,0.133
760.00,0.132
762.50,0.132
765.00,0.131
767.50,0.131
770.00,0.130
772.50,0.129
775.00,0.129
777.50,0.128
780.00,0.128
782.50,0.128
785.00,0.127
787.50,0.127
790.00,0.127
792.50,0.127
795.00,0.127
797.50,0.127
800.00,0.127
802.50,0.128
805.00,0.128
807.50,0.129
810.00,0.129
812.50,0.130
815.00,0.130
817.50,0.131
820.00,0.132
822.50,0.133
825.00,0.134
827.50,0.135
830.00,0.136
832.50,0.138
835.00,0.139
837.50,0.140
840.00,0.141
842.50,0.142
845.00,0.143
847.50,0.145
850.00,0.146
852.50,0.148
855.00,0.149
857.50,0.151
860.00,0.153
862.50,0.156
865.00,0.158
867.50,0.161
870.00,0.164
872.50,0.166
875.00,0.168
877.50,0.168
880.00,0.168
882.50,0.167
885.00,0.166
887.50,0.165
890.00,0.166
892.50,0.168
895.00,0.168
897.50,0.168
900.00,0.167
902.50,0.166
905.00,0.170
907.50,0.169
910.00,0.171
912.50,0.171
915.00,0.170
917.50,0.167
920.00,0.166
922.50,0.165
925.00,0.161
927.50,0.160
930.00,0.161
932.50,0.159
935.00,0.161
937.50,0.164
940.00,0.164
942.50,0.160
945.00,0.158
947.50,0.161
950.00,0.161
952.50,0.157
955.00,0.156
957.50,0.158
960.00,0.156
962.50,0.161
965.00,0.159
967.50,0.164
970.00,0.163
972.50,0.169
975.00,0.172
977.50,0.177
980.00,0.179
982.50,0.188
985.00,0.183
987.50,0.177
990.00,0.183
992.50,0.183
995.00,0.182
997.50,0.182
1000.00,0.178
1002.50,0.177
1005.00,0.176
1007.50,0.172
1010.00,0.170
1012.50,0.160
1015.00,0.171
1017.50,0.158
1020.00,0.165
1022.50,0.144
1025.00,0.151
1027.50,0.154
1030.00,0.153
1032.50,0.146
1035.00,0.156
1037.50,0.144
1040.00,0.149
1042.50,0.150
1045.00,0.139
1047.50,0.147
1050.00,0.142
1052.50,0.145
1055.00,0.135
1057.50,0.136
1060.00,0.140
1062.50,0.131
1065.00,0.132
1067.50,0.142
1070.00,0.151
1072.50,0.152
1075.00,0.127
1077.50,0.131
1080.00,0.126
1082.50,0.124
1085.00,0.127
1087.50,0.135
1090.00,0.132
1092.50,0.125
1095.00,0.127
1097.50,0.128
1100.00,0.132

File: New 24DF.txt
"New 24DF.spc - RawData"
"Wavelength nm.","Abs."
450.00,0.101
452.50,0.102
455.00,0.102
457.50,0.103
460.00,0.104
462.50,0.105
465.00,0.106
467.50,0.106
470.00,0.106
472.50,0.105
475.00,0.103
477.50,0.101
480.00,0.099
482.50,0.097
485.00,0.095
487.50,0.094
490.00,0.093
492.50,0.092
495.00,0.092
497.50,0.092
500.00,0.092
502.50,0.093
505.00,0.094
507.50,0.095
510.00,0.095
512.50,0.096
515.00,0.096
517.50,0.096
520.00,0.096
522.50,0.095
525.00,0.095
527.50,0.094
530.00,0.093
532.50,0.093
535.00,0.092
537.50,0.091
540.00,0.091
542.50,0.091
545.00,0.091
547.50,0.092
550.00,0.093
552.50,0.094
555.00,0.096
557.50,0.098
560.00,0.101
562.50,0.104
565.00,0.107
567.50,0.111
570.00,0.113
572.50,0.116
575.00,0.117
577.50,0.118
580.00,0.119
582.50,0.119
585.00,0.119
587.50,0.119
590.00,0.118
592.50,0.116
595.00,0.114
597.50,0.112
600.00,0.110
602.50,0.107
605.00,0.104
607.50,0.102
610.00,0.099
612.50,0.096
615.00,0.094
617.50,0.092
620.00,0.090
622.50,0.088
625.00,0.087
627.50,0.086
630.00,0.085
632.50,0.084
635.00,0.084
637.50,0.084
640.00,0.084
642.50,0.085
645.00,0.085
647.50,0.086
650.00,0.087
652.50,0.088
655.00,0.088
657.50,0.089
660.00,0.089
662.50,0.090
665.00,0.090
667.50,0.090
670.00,0.089
672.50,0.089
675.00,0.087
677.50,0.086
680.00,0.085
682.50,0.083
685.00,0.082
687.50,0.081
690.00,0.080
692.50,0.078
695.00,0.077
697.50,0.076
700.00,0.074
702.50,0.073
705.00,0.072
707.50,0.071
710.00,0.070
712.50,0.069
715.00,0.068
717.50,0.068
720.00,0.067
722.50,0.067
725.00,0.067
727.50,0.067
730.00,0.066
732.50,0.066
735.00,0.066
737.50,0.066
740.00,0.066
742.50,0.066
745.00,0.065
747.50,0.065
750.00,0.065
752.50,0.064
755.00,0.064
757.50,0.064
760.00,0.064
762.50,0.064
765.00,0.063
767.50,0.063
770.00,0.063
772.50,0.063
775.00,0.062
777.50,0.062
780.00,0.062
782.50,0.062
785.00,0.062
787.50,0.062
790.00,0.062
792.50,0.062
795.00,0.062
797.50,0.062
800.00,0.062
802.50,0.062
805.00,0.063
807.50,0.063
810.00,0.063
812.50,0.063
815.00,0.064
817.50,0.064
820.00,0.065
822.50,0.065
825.00,0.066
827.50,0.066
830.00,0.067
832.50,0.067
835.00,0.068
837.50,0.068
840.00,0.069
842.50,0.069
845.00,0.070
847.50,0.071
850.00,0.071
852.50,0.072
855.00,0.073
857.50,0.074
860.00,0.075
862.50,0.076
865.00,0.077
867.50,0.078
870.00,0.079
872.50,0.081
875.00,0.082
877.50,0.083
880.00,0.083
882.50,0.083
885.00,0.083
887.50,0.082
890.00,0.082
892.50,0.083
895.00,0.083
897.50,0.082
900.00,0.082
902.50,0.080
905.00,0.083
907.50,0.082
910.00,0.082
912.50,0.082
915.00,0.081
917.50,0.081
920.00,0.080
922.50,0.082
925.00,0.078
927.50,0.078
930.00,0.078
932.50,0.076
935.00,0.076
937.50,0.080
940.00,0.079
942.50,0.075
945.00,0.077
947.50,0.076
950.00,0.076
952.50,0.073
955.00,0.075
957.50,0.076
960.00,0.076
962.50,0.080
965.00,0.076
967.50,0.080
970.00,0.078
972.50,0.082
975.00,0.079
977.50,0.087
980.00,0.086
982.50,0.093
985.00,0.095
987.50,0.087
990.00,0.093
992.50,0.096
995.00,0.089
997.50,0.090
1000.00,0.092
1002.50,0.086
1005.00,0.085
1007.50,0.089
1010.00,0.081
1012.50,0.077
1015.00,0.085
1017.50,0.078
1020.00,0.078
1022.50,0.070
1025.00,0.075
1027.50,0.071
1030.00,0.077
1032.50,0.068
1035.00,0.071
1037.50,0.066
1040.00,0.075
1042.50,0.071
1045.00,0.066
1047.50,0.070
1050.00,0.067
1052.50,0.069
1055.00,0.064
1057.50,0.066
1060.00,0.062
1062.50,0.066
1065.00,0.064
1067.50,0.062
1070.00,0.076
1072.50,0.076
1075.00,0.059
1077.50,0.059
1080.00,0.063
1082.50,0.059
1085.00,0.060
1087.50,0.066
1090.00,0.064
1092.50,0.060
1095.00,0.059
1097.50,0.057
1100.00,0.066

File: New 96DF.txt
"New 96DF.spc - RawData"
"Wavelength nm.","Abs."
450.00,0.028
452.50,0.028
455.00,0.028
457.50,0.029
460.00,0.029
462.50,0.029
465.00,0.029
467.50,0.029
470.00,0.029
472.50,0.029
475.00,0.028
477.50,0.028
480.00,0.027
482.50,0.027
485.00,0.026
487.50,0.026
490.00,0.026
492.50,0.025
495.00,0.025
497.50,0.025
500.00,0.025
502.50,0.026
505.00,0.026
507.50,0.026
510.00,0.026
512.50,0.026
515.00,0.026
517.50,0.026
520.00,0.026
522.50,0.026
525.00,0.026
527.50,0.026
530.00,0.025
532.50,0.025
535.00,0.025
537.50,0.025
540.00,0.025
542.50,0.025
545.00,0.025
547.50,0.025
550.00,0.025
552.50,0.026
555.00,0.026
557.50,0.027
560.00,0.027
562.50,0.028
565.00,0.029
567.50,0.030
570.00,0.031
572.50,0.031
575.00,0.032
577.50,0.032
580.00,0.032
582.50,0.033
585.00,0.033
587.50,0.032
590.00,0.032
592.50,0.032
595.00,0.031
597.50,0.031
600.00,0.030
602.50,0.029
605.00,0.029
607.50,0.028
610.00,0.027
612.50,0.027
615.00,0.026
617.50,0.025
620.00,0.025
622.50,0.025
625.00,0.024
627.50,0.024
630.00,0.024
632.50,0.024
635.00,0.024
637.50,0.024
640.00,0.024
642.50,0.024
645.00,0.024
647.50,0.024
650.00,0.025
652.50,0.025
655.00,0.025
657.50,0.025
660.00,0.025
662.50,0.026
665.00,0.026
667.50,0.026
670.00,0.026
672.50,0.025
675.00,0.025
677.50,0.025
680.00,0.024
682.50,0.024
685.00,0.024
687.50,0.024
690.00,0.023
692.50,0.023
695.00,0.023
697.50,0.022
700.00,0.022
702.50,0.022
705.00,0.021
707.50,0.021
710.00,0.021
712.50,0.021
715.00,0.020
717.50,0.020
720.00,0.020
722.50,0.020
725.00,0.020
727.50,0.020
730.00,0.020
732.50,0.020
735.00,0.020
737.50,0.020
740.00,0.020
742.50,0.020
745.00,0.020
747.50,0.020
750.00,0.020
752.50,0.020
755.00,0.020
757.50,0.020
760.00,0.020
762.50,0.020
765.00,0.020
767.50,0.020
770.00,0.020
772.50,0.020
775.00,0.020
777.50,0.020
780.00,0.020
782.50,0.020
785.00,0.020
787.50,0.020
790.00,0.020
792.50,0.020
795.00,0.020
797.50,0.020
800.00,0.020
802.50,0.021
805.00,0.021
807.50,0.021
810.00,0.021
812.50,0.021
815.00,0.021
817.50,0.021
820.00,0.021
822.50,0.021
825.00,0.021
827.50,0.022
830.00,0.022
832.50,0.022
835.00,0.022
837.50,0.022
840.00,0.022
842.50,0.022
845.00,0.022
847.50,0.022
850.00,0.022
852.50,0.022
855.00,0.022
857.50,0.023
860.00,0.023
862.50,0.023
865.00,0.024
867.50,0.024
870.00,0.024
872.50,0.025
875.00,0.025
877.50,0.025
880.00,0.025
882.50,0.024
885.00,0.024
887.50,0.024
890.00,0.024
892.50,0.025
895.00,0.025
897.50,0.024
900.00,0.023
902.50,0.022
905.00,0.025
907.50,0.023
910.00,0.024
912.50,0.024
915.00,0.024
917.50,0.022
920.00,0.022
922.50,0.022
925.00,0.020
927.50,0.020
930.00,0.022
932.50,0.020
935.00,0.019
937.50,0.024
940.00,0.022
942.50,0.020
945.00,0.021
947.50,0.022
950.00,0.023
952.50,0.019
955.00,0.021
957.50,0.023
960.00,0.018
962.50,0.026
965.00,0.021
967.50,0.023
970.00,0.022
972.50,0.022
975.00,0.022
977.50,0.028
980.00,0.023
982.50,0.033
985.00,0.031
987.50,0.021
990.00,0.025
992.50,0.032
995.00,0.029
997.50,0.029
1000.00,0.026
1002.50,0.025
1005.00,0.023
1007.50,0.024
1010.00,0.019
1012.50,0.018
1015.00,0.027
1017.50,0.019
1020.00,0.020
1022.50,0.009
1025.00,0.021
1027.50,0.017
1030.00,0.020
1032.50,0.016
1035.00,0.020
1037.50,0.015
1040.00,0.020
1042.50,0.021
1045.00,0.013
1047.50,0.022
1050.00,0.020
1052.50,0.022
1055.00,0.013
1057.50,0.016
1060.00,0.016
1062.50,0.015
1065.00,0.025
1067.50,0.017
1070.00,0.026
1072.50,0.024
1075.00,0.011
1077.50,0.010
1080.00,0.015
1082.50,0.015
1085.00,0.012
1087.50,0.018
1090.00,0.018
1092.50,0.010
1095.00,0.015
1097.50,0.014
1100.00,0.019